TITLE,280s - 183nm - n
DATA TYPE,ULTRAVIOLET SPECTRUM
ORIGIN,JASCO
OWNER,
DATE,24/11/14
TIME,15:16:38
SPECTROMETER/DATA SYSTEM,
LOCALE,1040
RESOLUTION,
DELTAX,-0.5
XUNITS,NANOMETERS
YUNITS,ABSORBANCE
FIRSTX, 2300.0000
LASTX,  900.0000
NPOINTS,    2801
FIRSTY,     5.10183
MAXY,    10.00000
MINY,    -4.45458
XYDATA
2300.0000,5.10183
2299.5000,10
2299.0000,2.56066
2298.5000,10
2298.0000,10
2297.5000,10
2297.0000,10
2296.5000,4.88222
2296.0000,4.53229
2295.5000,5.18322
2295.0000,0.0193702
2294.5000,5.03091
2294.0000,-1.20794
2293.5000,4.78751
2293.0000,10
2292.5000,4.62652
2292.0000,4.38463
2291.5000,5.0882
2291.0000,-2.33378
2290.5000,10
2290.0000,4.93143
2289.5000,-2.42414
2289.0000,10
2288.5000,4.91016
2288.0000,4.98968
2287.5000,3.20859
2287.0000,4.80055
2286.5000,10
2286.0000,-0.405374
2285.5000,3.11678
2285.0000,4.72159
2284.5000,5.08466
2284.0000,2.92229
2283.5000,4.86828
2283.0000,4.77752
2282.5000,4.85586
2282.0000,5.0579
2281.5000,10
2281.0000,-1.68192
2280.5000,5.18391
2280.0000,-0.247691
2279.5000,-2.19765
2279.0000,10
2278.5000,4.67632
2278.0000,4.93911
2277.5000,-2.58334
2277.0000,5.18791
2276.5000,10
2276.0000,10
2275.5000,-0.256128
2275.0000,2.80232
2274.5000,4.99854
2274.0000,4.94109
2273.5000,10
2273.0000,2.95173
2272.5000,5.04363
2272.0000,3.38794
2271.5000,10
2271.0000,10
2270.5000,2.65628
2270.0000,5.01332
2269.5000,2.79136
2269.0000,10
2268.5000,2.78019
2268.0000,-2.66112
2267.5000,10
2267.0000,10
2266.5000,4.89337
2266.0000,0.362644
2265.5000,10
2265.0000,-0.289639
2264.5000,10
2264.0000,5.01212
2263.5000,-1.22519
2263.0000,2.97293
2262.5000,10
2262.0000,2.8628
2261.5000,4.69075
2261.0000,5.18499
2260.5000,4.73229
2260.0000,2.67659
2259.5000,4.67592
2259.0000,10
2258.5000,5.79912
2258.0000,3.16403
2257.5000,4.8671
2257.0000,5.02379
2256.5000,-0.487823
2256.0000,4.99461
2255.5000,10
2255.0000,10
2254.5000,10
2254.0000,4.53927
2253.5000,4.40154
2253.0000,5.02505
2252.5000,3.12815
2252.0000,10
2251.5000,10
2251.0000,-4.42092
2250.5000,5.08774
2250.0000,10
2249.5000,-1.46337
2249.0000,2.66561
2248.5000,10
2248.0000,-0.0501667
2247.5000,10
2247.0000,4.8157
2246.5000,5.20344
2246.0000,-0.506341
2245.5000,10
2245.0000,2.82977
2244.5000,-0.297278
2244.0000,10
2243.5000,-0.0822489
2243.0000,4.75191
2242.5000,-0.0226829
2242.0000,4.82076
2241.5000,3.27743
2241.0000,0.170399
2240.5000,5.04902
2240.0000,-2.52424
2239.5000,-0.477672
2239.0000,-0.356628
2238.5000,-0.179887
2238.0000,0.24319
2237.5000,-0.658916
2237.0000,0.57889
2236.5000,-2.45005
2236.0000,5.1584
2235.5000,0.0913426
2235.0000,-0.127751
2234.5000,0.127894
2234.0000,-0.132917
2233.5000,-0.0608351
2233.0000,-0.335475
2232.5000,0.0515373
2232.0000,0.0115147
2231.5000,-0.0187756
2231.0000,0.0558176
2230.5000,-0.0958303
2230.0000,-0.0577394
2229.5000,-0.147274
2229.0000,0.181342
2228.5000,-0.0533048
2228.0000,-0.427157
2227.5000,-0.0775021
2227.0000,-0.141731
2226.5000,-0.108317
2226.0000,-0.114907
2225.5000,-0.116845
2225.0000,-0.0181993
2224.5000,-0.127978
2224.0000,-0.133645
2223.5000,-0.116297
2223.0000,-0.000783124
2222.5000,-0.0311165
2222.0000,-0.0587174
2221.5000,-0.0859558
2221.0000,0.0184469
2220.5000,0.0472101
2220.0000,-0.0551894
2219.5000,0.00208446
2219.0000,0.082098
2218.5000,0.000860456
2218.0000,0.0583873
2217.5000,-0.170353
2217.0000,-0.0484921
2216.5000,0.00386424
2216.0000,0.0422798
2215.5000,0.130505
2215.0000,0.0639596
2214.5000,0.148816
2214.0000,-0.0526134
2213.5000,-0.0556691
2213.0000,0.0163474
2212.5000,-0.0732288
2212.0000,-0.0427423
2211.5000,-0.153788
2211.0000,-0.12284
2210.5000,0.145132
2210.0000,-0.00723697
2209.5000,-0.00197128
2209.0000,-0.00489418
2208.5000,-0.121191
2208.0000,-0.047735
2207.5000,0.0463261
2207.0000,0.11036
2206.5000,-0.040257
2206.0000,-0.0647024
2205.5000,0.110189
2205.0000,-0.0227673
2204.5000,-0.234445
2204.0000,0.145
2203.5000,-0.126438
2203.0000,-0.0508554
2202.5000,-0.214039
2202.0000,5.04536
2201.5000,-0.0183571
2201.0000,0.0597408
2200.5000,-0.134288
2200.0000,0.119323
2199.5000,-0.742875
2199.0000,0.368795
2198.5000,-0.222073
2198.0000,0.416385
2197.5000,0.28756
2197.0000,4.96021
2196.5000,5.26358
2196.0000,0.126536
2195.5000,-1.57821
2195.0000,4.82226
2194.5000,-1.99922
2194.0000,10
2193.5000,4.82624
2193.0000,-4.41729
2192.5000,10
2192.0000,4.94285
2191.5000,5.14244
2191.0000,-2.40363
2190.5000,4.94858
2190.0000,5.1221
2189.5000,-2.42395
2189.0000,2.84753
2188.5000,2.6882
2188.0000,2.90394
2187.5000,10
2187.0000,4.9372
2186.5000,5.04217
2186.0000,10
2185.5000,5.30602
2185.0000,0.0323067
2184.5000,10
2184.0000,10
2183.5000,-3.92078
2183.0000,-2.11833
2182.5000,10
2182.0000,4.85839
2181.5000,5.04169
2181.0000,5.28087
2180.5000,4.89354
2180.0000,-2.21806
2179.5000,0.142498
2179.0000,10
2178.5000,10
2178.0000,10
2177.5000,2.84173
2177.0000,4.51266
2176.5000,-0.119224
2176.0000,4.45825
2175.5000,-2.2204
2175.0000,10
2174.5000,4.84523
2174.0000,4.80019
2173.5000,-2.61911
2173.0000,5.03979
2172.5000,4.5377
2172.0000,4.77272
2171.5000,2.71185
2171.0000,-2.19992
2170.5000,-3.99881
2170.0000,2.73002
2169.5000,-4.45336
2169.0000,5.64774
2168.5000,5.06331
2168.0000,-3.62545
2167.5000,4.98394
2167.0000,10
2166.5000,0.325887
2166.0000,2.69228
2165.5000,10
2165.0000,5.00527
2164.5000,4.96798
2164.0000,4.87963
2163.5000,-2.24308
2163.0000,10
2162.5000,5.04022
2162.0000,10
2161.5000,10
2161.0000,2.63293
2160.5000,10
2160.0000,-2.4846
2159.5000,-1.6695
2159.0000,10
2158.5000,10
2158.0000,4.6954
2157.5000,10
2157.0000,10
2156.5000,5.00698
2156.0000,-2.53392
2155.5000,10
2155.0000,-2.72388
2154.5000,5.03144
2154.0000,5.25631
2153.5000,-2.36708
2153.0000,10
2152.5000,2.97066
2152.0000,2.54461
2151.5000,2.9709
2151.0000,-2.0697
2150.5000,10
2150.0000,10
2149.5000,4.60851
2149.0000,-0.0151605
2148.5000,-1.87668
2148.0000,-2.08278
2147.5000,10
2147.0000,-2.29388
2146.5000,10
2146.0000,3.06897
2145.5000,0.48791
2145.0000,4.76798
2144.5000,3.09894
2144.0000,2.67197
2143.5000,3.19046
2143.0000,10
2142.5000,3.67715
2142.0000,10
2141.5000,10
2141.0000,-0.250843
2140.5000,4.95581
2140.0000,10
2139.5000,10
2139.0000,4.62898
2138.5000,5.07791
2138.0000,10
2137.5000,10
2137.0000,-0.570828
2136.5000,-2.23627
2136.0000,10
2135.5000,4.8981
2135.0000,4.61388
2134.5000,3.17652
2134.0000,10
2133.5000,5.05648
2133.0000,10
2132.5000,3.04325
2132.0000,-1.39374
2131.5000,2.72296
2131.0000,0.0535442
2130.5000,-0.000957366
2130.0000,-0.186102
2129.5000,-0.00327806
2129.0000,0.0885905
2128.5000,0.0159686
2128.0000,0.0405579
2127.5000,0.0047099
2127.0000,0.00169373
2126.5000,-0.0144872
2126.0000,0.00877578
2125.5000,-0.0351301
2125.0000,-0.00253819
2124.5000,-0.0154365
2124.0000,0.0183136
2123.5000,-0.00524251
2123.0000,0.037069
2122.5000,0.0115682
2122.0000,-0.011331
2121.5000,0.0133361
2121.0000,0.000841212
2120.5000,0.0231619
2120.0000,-0.00778058
2119.5000,-0.00307012
2119.0000,0.026093
2118.5000,0.0128029
2118.0000,-0.0014167
2117.5000,-0.0144894
2117.0000,0.00121432
2116.5000,0.01679
2116.0000,0.0130617
2115.5000,0.0203561
2115.0000,-0.00291211
2114.5000,0.0154577
2114.0000,0.0176163
2113.5000,0.0293335
2113.0000,0.0121709
2112.5000,0.0137303
2112.0000,0.00958831
2111.5000,0.0124673
2111.0000,0.0149066
2110.5000,0.0127815
2110.0000,0.0125361
2109.5000,0.0166117
2109.0000,0.0250244
2108.5000,0.0202008
2108.0000,0.0276721
2107.5000,0.0277495
2107.0000,0.0117317
2106.5000,0.0271269
2106.0000,0.0283706
2105.5000,0.0195764
2105.0000,0.0241119
2104.5000,0.028336
2104.0000,0.0199096
2103.5000,0.0318275
2103.0000,0.0366516
2102.5000,0.0280818
2102.0000,0.0384816
2101.5000,0.0325959
2101.0000,0.0359856
2100.5000,0.0310051
2100.0000,0.0356279
2099.5000,0.0332637
2099.0000,0.0384869
2098.5000,0.0273253
2098.0000,0.0362305
2097.5000,0.0366297
2097.0000,0.0467233
2096.5000,0.0419772
2096.0000,0.0442747
2095.5000,0.0408515
2095.0000,0.0354576
2094.5000,0.0445475
2094.0000,0.0462463
2093.5000,0.0512171
2093.0000,0.0446618
2092.5000,0.0508862
2092.0000,0.0472741
2091.5000,0.0484149
2091.0000,0.0556638
2090.5000,0.0496609
2090.0000,0.0503316
2089.5000,0.0504234
2089.0000,0.0612366
2088.5000,0.0644456
2088.0000,0.0596748
2087.5000,0.0596133
2087.0000,0.0643957
2086.5000,0.0621202
2086.0000,0.062265
2085.5000,0.0683044
2085.0000,0.0680029
2084.5000,0.0661108
2084.0000,0.0681841
2083.5000,0.0708107
2083.0000,0.0757835
2082.5000,0.0713388
2082.0000,0.0793877
2081.5000,0.0761025
2081.0000,0.0796046
2080.5000,0.0789823
2080.0000,0.0860245
2079.5000,0.0870476
2079.0000,0.0829349
2078.5000,0.0842896
2078.0000,0.0849281
2077.5000,0.0881843
2077.0000,0.0922597
2076.5000,0.0865164
2076.0000,0.091677
2075.5000,0.101816
2075.0000,0.0926688
2074.5000,0.103518
2074.0000,0.0977482
2073.5000,0.106336
2073.0000,0.107269
2072.5000,0.106046
2072.0000,0.105755
2071.5000,0.107563
2071.0000,0.107439
2070.5000,0.112604
2070.0000,0.125387
2069.5000,0.11352
2069.0000,0.1202
2068.5000,0.119222
2068.0000,0.123451
2067.5000,0.126063
2067.0000,0.125335
2066.5000,0.126288
2066.0000,0.134818
2065.5000,0.131433
2065.0000,0.134639
2064.5000,0.136948
2064.0000,0.13837
2063.5000,0.141717
2063.0000,0.145239
2062.5000,0.140566
2062.0000,0.151966
2061.5000,0.150667
2061.0000,0.153938
2060.5000,0.159477
2060.0000,0.162317
2059.5000,0.163736
2059.0000,0.163109
2058.5000,0.163225
2058.0000,0.168843
2057.5000,0.159186
2057.0000,0.169043
2056.5000,0.178044
2056.0000,0.178024
2055.5000,0.177665
2055.0000,0.186734
2054.5000,0.183777
2054.0000,0.18393
2053.5000,0.190384
2053.0000,0.185998
2052.5000,0.194131
2052.0000,0.197657
2051.5000,0.192294
2051.0000,0.205984
2050.5000,0.207753
2050.0000,0.206094
2049.5000,0.21043
2049.0000,0.204785
2048.5000,0.218721
2048.0000,0.213473
2047.5000,0.220796
2047.0000,0.220305
2046.5000,0.227175
2046.0000,0.226409
2045.5000,0.228892
2045.0000,0.231233
2044.5000,0.23327
2044.0000,0.234248
2043.5000,0.239458
2043.0000,0.240842
2042.5000,0.248025
2042.0000,0.246145
2041.5000,0.254707
2041.0000,0.258109
2040.5000,0.253528
2040.0000,0.257676
2039.5000,0.260873
2039.0000,0.262567
2038.5000,0.262645
2038.0000,0.2708
2037.5000,0.269126
2037.0000,0.265372
2036.5000,0.277198
2036.0000,0.279828
2035.5000,0.276864
2035.0000,0.287123
2034.5000,0.288749
2034.0000,0.291783
2033.5000,0.283457
2033.0000,0.28926
2032.5000,0.291299
2032.0000,0.298165
2031.5000,0.29001
2031.0000,0.301368
2030.5000,0.311292
2030.0000,0.299046
2029.5000,0.309957
2029.0000,0.311787
2028.5000,0.311631
2028.0000,0.316016
2027.5000,0.316295
2027.0000,0.310032
2026.5000,0.314289
2026.0000,0.317075
2025.5000,0.324375
2025.0000,0.327166
2024.5000,0.333712
2024.0000,0.331948
2023.5000,0.327373
2023.0000,0.334817
2022.5000,0.338969
2022.0000,0.345329
2021.5000,0.336644
2021.0000,0.34383
2020.5000,0.341171
2020.0000,0.342358
2019.5000,0.347969
2019.0000,0.336512
2018.5000,0.34817
2018.0000,0.345131
2017.5000,0.352426
2017.0000,0.334309
2016.5000,0.351487
2016.0000,0.356364
2015.5000,0.3542
2015.0000,0.359224
2014.5000,0.366002
2014.0000,0.35181
2013.5000,0.353732
2013.0000,0.354377
2012.5000,0.353896
2012.0000,0.364671
2011.5000,0.347671
2011.0000,0.355319
2010.5000,0.365987
2010.0000,0.356139
2009.5000,0.361817
2009.0000,0.355948
2008.5000,0.355357
2008.0000,0.348778
2007.5000,0.36903
2007.0000,0.36002
2006.5000,0.349638
2006.0000,0.360949
2005.5000,0.369004
2005.0000,0.358525
2004.5000,0.358075
2004.0000,0.344606
2003.5000,0.353239
2003.0000,0.346237
2002.5000,0.356214
2002.0000,0.352092
2001.5000,0.345081
2001.0000,0.342162
2000.5000,0.347696
2000.0000,0.348044
1999.5000,0.344686
1999.0000,0.343587
1998.5000,0.348983
1998.0000,0.345556
1997.5000,0.334278
1997.0000,0.34435
1996.5000,0.335813
1996.0000,0.340868
1995.5000,0.340674
1995.0000,0.336799
1994.5000,0.338228
1994.0000,0.330441
1993.5000,0.330945
1993.0000,0.331701
1992.5000,0.331948
1992.0000,0.327739
1991.5000,0.328214
1991.0000,0.321505
1990.5000,0.326065
1990.0000,0.323681
1989.5000,0.312514
1989.0000,0.318546
1988.5000,0.308819
1988.0000,0.311375
1987.5000,0.314808
1987.0000,0.307995
1986.5000,0.309756
1986.0000,0.315838
1985.5000,0.302728
1985.0000,0.304701
1984.5000,0.302391
1984.0000,0.30238
1983.5000,0.289806
1983.0000,0.291407
1982.5000,0.291772
1982.0000,0.29024
1981.5000,0.282405
1981.0000,0.281796
1980.5000,0.283312
1980.0000,0.282095
1979.5000,0.277067
1979.0000,0.282926
1978.5000,0.278051
1978.0000,0.268063
1977.5000,0.268948
1977.0000,0.270621
1976.5000,0.264631
1976.0000,0.264629
1975.5000,0.262037
1975.0000,0.258361
1974.5000,0.253779
1974.0000,0.253573
1973.5000,0.253573
1973.0000,0.249202
1972.5000,0.249024
1972.0000,0.243891
1971.5000,0.243555
1971.0000,0.240537
1970.5000,0.231258
1970.0000,0.238787
1969.5000,0.232814
1969.0000,0.229248
1968.5000,0.231763
1968.0000,0.228482
1967.5000,0.224121
1967.0000,0.221533
1966.5000,0.215278
1966.0000,0.212495
1965.5000,0.213426
1965.0000,0.211068
1964.5000,0.214201
1964.0000,0.208674
1963.5000,0.207455
1963.0000,0.208372
1962.5000,0.204016
1962.0000,0.201889
1961.5000,0.202068
1961.0000,0.197206
1960.5000,0.186164
1960.0000,0.191057
1959.5000,0.186444
1959.0000,0.185698
1958.5000,0.18279
1958.0000,0.180316
1957.5000,0.177786
1957.0000,0.182878
1956.5000,0.179168
1956.0000,0.177866
1955.5000,0.175082
1955.0000,0.168301
1954.5000,0.172117
1954.0000,0.169029
1953.5000,0.166438
1953.0000,0.163938
1952.5000,0.163885
1952.0000,0.160593
1951.5000,0.159842
1951.0000,0.158699
1950.5000,0.156558
1950.0000,0.157315
1949.5000,0.153009
1949.0000,0.150184
1948.5000,0.147835
1948.0000,0.149645
1947.5000,0.143332
1947.0000,0.143618
1946.5000,0.14269
1946.0000,0.13812
1945.5000,0.139848
1945.0000,0.135708
1944.5000,0.138612
1944.0000,0.130807
1943.5000,0.131018
1943.0000,0.131486
1942.5000,0.132622
1942.0000,0.132147
1941.5000,0.130104
1941.0000,0.127119
1940.5000,0.124745
1940.0000,0.123441
1939.5000,0.121076
1939.0000,0.121114
1938.5000,0.120223
1938.0000,0.121908
1937.5000,0.118494
1937.0000,0.113738
1936.5000,0.116438
1936.0000,0.112702
1935.5000,0.111199
1935.0000,0.110277
1934.5000,0.11038
1934.0000,0.110037
1933.5000,0.10765
1933.0000,0.103087
1932.5000,0.109304
1932.0000,0.102501
1931.5000,0.1023
1931.0000,0.101642
1930.5000,0.104314
1930.0000,0.0985807
1929.5000,0.0938632
1929.0000,0.0983593
1928.5000,0.0956782
1928.0000,0.09495
1927.5000,0.0960764
1927.0000,0.0978369
1926.5000,0.0943826
1926.0000,0.0905075
1925.5000,0.0955938
1925.0000,0.0911887
1924.5000,0.0831609
1924.0000,0.0889329
1923.5000,0.0885054
1923.0000,0.090078
1922.5000,0.0878082
1922.0000,0.0875164
1921.5000,0.086839
1921.0000,0.0817505
1920.5000,0.0867459
1920.0000,0.0806896
1919.5000,0.0825699
1919.0000,0.0800366
1918.5000,0.0805975
1918.0000,0.0808139
1917.5000,0.0815554
1917.0000,0.0775503
1916.5000,0.073937
1916.0000,0.0766899
1915.5000,0.0766425
1915.0000,0.0725868
1914.5000,0.0743311
1914.0000,0.0738118
1913.5000,0.0769678
1913.0000,0.0787766
1912.5000,0.0732827
1912.0000,0.0719987
1911.5000,0.0758314
1911.0000,0.0711914
1910.5000,0.0716983
1910.0000,0.0693758
1909.5000,0.0690792
1909.0000,0.0665277
1908.5000,0.0681238
1908.0000,0.0693715
1907.5000,0.0683725
1907.0000,0.0627242
1906.5000,0.0652926
1906.0000,0.0588052
1905.5000,0.0633348
1905.0000,0.0601148
1904.5000,0.0588332
1904.0000,0.0612194
1903.5000,0.0610985
1903.0000,0.0646432
1902.5000,0.0593597
1902.0000,0.060195
1901.5000,0.0578972
1901.0000,0.065602
1900.5000,0.0597325
1900.0000,0.0617526
1899.5000,0.0602068
1899.0000,0.0569105
1898.5000,0.0545626
1898.0000,0.0585296
1897.5000,0.0586743
1897.0000,0.0598946
1896.5000,0.0611028
1896.0000,0.0575677
1895.5000,0.0558349
1895.0000,0.0560159
1894.5000,0.0579503
1894.0000,0.0551108
1893.5000,0.0623179
1893.0000,0.0558835
1892.5000,0.0570383
1892.0000,0.0595105
1891.5000,0.0553816
1891.0000,0.0536967
1890.5000,0.0547865
1890.0000,0.0602833
1889.5000,0.053749
1889.0000,0.0555446
1888.5000,0.0558083
1888.0000,0.0590317
1887.5000,0.0528502
1887.0000,0.0552689
1886.5000,0.054348
1886.0000,0.0536606
1885.5000,0.0552521
1885.0000,0.0563085
1884.5000,0.0552442
1884.0000,0.0519235
1883.5000,0.0529644
1883.0000,0.0512076
1882.5000,0.0575095
1882.0000,0.0542026
1881.5000,0.0534377
1881.0000,0.0531316
1880.5000,0.0521093
1880.0000,0.0558901
1879.5000,0.0539249
1879.0000,0.0551548
1878.5000,0.0524678
1878.0000,0.0535847
1877.5000,0.0506462
1877.0000,0.0536366
1876.5000,0.049964
1876.0000,0.0510144
1875.5000,0.0470949
1875.0000,0.0533984
1874.5000,0.0512878
1874.0000,0.0547876
1873.5000,0.0508804
1873.0000,0.0490529
1872.5000,0.0480513
1872.0000,0.0424844
1871.5000,0.0446851
1871.0000,0.0465678
1870.5000,0.0486649
1870.0000,0.0589923
1869.5000,0.0478412
1869.0000,0.0417978
1868.5000,0.047152
1868.0000,0.0479837
1867.5000,0.0446913
1867.0000,0.038286
1866.5000,0.0473678
1866.0000,0.0465869
1865.5000,0.0502596
1865.0000,0.0496616
1864.5000,0.051932
1864.0000,0.0485829
1863.5000,0.0482586
1863.0000,0.0474081
1862.5000,0.0501258
1862.0000,0.0462987
1861.5000,0.0427879
1861.0000,0.0489125
1860.5000,0.0481193
1860.0000,0.0474667
1859.5000,0.042675
1859.0000,0.0502077
1858.5000,0.0470417
1858.0000,0.0461677
1857.5000,0.0462565
1857.0000,0.0486321
1856.5000,0.0472981
1856.0000,0.0445808
1855.5000,0.0462293
1855.0000,0.04494
1854.5000,0.0509996
1854.0000,0.0454447
1853.5000,0.0463063
1853.0000,0.0499289
1852.5000,0.0461718
1852.0000,0.0442468
1851.5000,0.046147
1851.0000,0.0482126
1850.5000,0.0431129
1850.0000,0.0489295
1849.5000,0.0477063
1849.0000,0.0452936
1848.5000,0.0486724
1848.0000,0.046748
1847.5000,0.0427715
1847.0000,0.0456723
1846.5000,0.0465843
1846.0000,0.0457419
1845.5000,0.0462224
1845.0000,0.0458094
1844.5000,0.0457298
1844.0000,0.0458825
1843.5000,0.0451637
1843.0000,0.0476089
1842.5000,0.0401153
1842.0000,0.0479564
1841.5000,0.0440828
1841.0000,0.0427341
1840.5000,0.045857
1840.0000,0.0442733
1839.5000,0.0470902
1839.0000,0.0469064
1838.5000,0.044591
1838.0000,0.0450305
1837.5000,0.046418
1837.0000,0.0466034
1836.5000,0.0471761
1836.0000,0.0465541
1835.5000,0.0453288
1835.0000,0.0464721
1834.5000,0.0490841
1834.0000,0.0445988
1833.5000,0.0466336
1833.0000,0.0471274
1832.5000,0.0469271
1832.0000,0.0479239
1831.5000,0.0444697
1831.0000,0.0473231
1830.5000,0.0477068
1830.0000,0.0437105
1829.5000,0.0468004
1829.0000,0.0460986
1828.5000,0.0468051
1828.0000,0.0485599
1827.5000,0.0490294
1827.0000,0.0463579
1826.5000,0.0471321
1826.0000,0.0445738
1825.5000,0.0465819
1825.0000,0.0517585
1824.5000,0.0493103
1824.0000,0.049019
1823.5000,0.0476249
1823.0000,0.0472516
1822.5000,0.0489419
1822.0000,0.0486786
1821.5000,0.0495775
1821.0000,0.0483085
1820.5000,0.0489736
1820.0000,0.0512127
1819.5000,0.0475932
1819.0000,0.0502429
1818.5000,0.051457
1818.0000,0.0494599
1817.5000,0.0535356
1817.0000,0.051295
1816.5000,0.0492656
1816.0000,0.0457295
1815.5000,0.0480117
1815.0000,0.0488472
1814.5000,0.0511522
1814.0000,0.0500207
1813.5000,0.0525017
1813.0000,0.0507849
1812.5000,0.0511471
1812.0000,0.052369
1811.5000,0.0510312
1811.0000,0.0528948
1810.5000,0.0496492
1810.0000,0.0541489
1809.5000,0.0532572
1809.0000,0.0490005
1808.5000,0.0528851
1808.0000,0.054708
1807.5000,0.0494963
1807.0000,0.0514509
1806.5000,0.0512795
1806.0000,0.0507878
1805.5000,0.0504112
1805.0000,0.0539599
1804.5000,0.0526453
1804.0000,0.0539637
1803.5000,0.0531949
1803.0000,0.0558102
1802.5000,0.056332
1802.0000,0.059292
1801.5000,0.0550299
1801.0000,0.054868
1800.5000,0.0548491
1800.0000,0.0574389
1799.5000,0.0533579
1799.0000,0.0575313
1798.5000,0.0564987
1798.0000,0.0572202
1797.5000,0.0582771
1797.0000,0.0590091
1796.5000,0.0585695
1796.0000,0.0556774
1795.5000,0.0549048
1795.0000,0.0571171
1794.5000,0.057095
1794.0000,0.0553832
1793.5000,0.0574652
1793.0000,0.0550579
1792.5000,0.0600662
1792.0000,0.060539
1791.5000,0.060485
1791.0000,0.0598346
1790.5000,0.0621391
1790.0000,0.0592754
1789.5000,0.0566523
1789.0000,0.060537
1788.5000,0.0634221
1788.0000,0.0630362
1787.5000,0.0606704
1787.0000,0.0703144
1786.5000,0.0602239
1786.0000,0.0588477
1785.5000,0.0667025
1785.0000,0.0607178
1784.5000,0.0629274
1784.0000,0.0645588
1783.5000,0.0651398
1783.0000,0.0638495
1782.5000,0.0704814
1782.0000,0.0645839
1781.5000,0.0641025
1781.0000,0.072029
1780.5000,0.0612033
1780.0000,0.0577452
1779.5000,0.0614803
1779.0000,0.0686086
1778.5000,0.068511
1778.0000,0.0764558
1777.5000,0.0702836
1777.0000,0.0749902
1776.5000,0.0656526
1776.0000,0.0765488
1775.5000,0.0797766
1775.0000,0.0676218
1774.5000,0.0827383
1774.0000,0.0808415
1773.5000,0.0885312
1773.0000,0.0925657
1772.5000,0.0794642
1772.0000,0.0372063
1771.5000,0.0847648
1771.0000,0.0830647
1770.5000,0.0835051
1770.0000,0.0427312
1769.5000,0.0817528
1769.0000,0.0972989
1768.5000,0.0637586
1768.0000,0.0853326
1767.5000,0.0764717
1767.0000,0.0686644
1766.5000,0.0798631
1766.0000,0.0755771
1765.5000,0.0852071
1765.0000,0.0673113
1764.5000,0.0612423
1764.0000,0.0812856
1763.5000,0.073047
1763.0000,0.0825044
1762.5000,0.0747355
1762.0000,0.094485
1761.5000,0.0838613
1761.0000,0.0704427
1760.5000,0.0883192
1760.0000,0.0712801
1759.5000,0.0759537
1759.0000,0.0920615
1758.5000,0.0878186
1758.0000,0.0774626
1757.5000,0.0795299
1757.0000,0.0560633
1756.5000,0.0916292
1756.0000,0.0670298
1755.5000,0.085211
1755.0000,0.082599
1754.5000,0.0817455
1754.0000,0.101115
1753.5000,0.0832127
1753.0000,0.106442
1752.5000,0.0914476
1752.0000,0.109805
1751.5000,0.0638664
1751.0000,0.086064
1750.5000,0.0978962
1750.0000,0.127782
1749.5000,0.0922496
1749.0000,0.0822388
1748.5000,0.0879471
1748.0000,0.0961189
1747.5000,0.0849204
1747.0000,0.0855357
1746.5000,0.0665439
1746.0000,0.0804911
1745.5000,0.0598597
1745.0000,0.11699
1744.5000,0.139262
1744.0000,0.131486
1743.5000,0.0864071
1743.0000,0.104563
1742.5000,0.0933427
1742.0000,0.117761
1741.5000,0.0979412
1741.0000,0.0493922
1740.5000,0.0708637
1740.0000,0.0840124
1739.5000,0.112483
1739.0000,0.0758584
1738.5000,0.0925373
1738.0000,0.097533
1737.5000,0.11524
1737.0000,0.0914072
1736.5000,0.0900429
1736.0000,0.0767473
1735.5000,0.0971269
1735.0000,0.133951
1734.5000,0.117783
1734.0000,0.0758694
1733.5000,0.10142
1733.0000,0.079389
1732.5000,0.0993584
1732.0000,0.0738388
1731.5000,0.0926642
1731.0000,0.0745714
1730.5000,0.0879985
1730.0000,0.124091
1729.5000,0.143398
1729.0000,0.0829611
1728.5000,0.124141
1728.0000,0.117119
1727.5000,0.101065
1727.0000,0.117474
1726.5000,0.101786
1726.0000,0.104844
1725.5000,0.112091
1725.0000,0.141012
1724.5000,0.121555
1724.0000,0.0787858
1723.5000,0.125686
1723.0000,0.108474
1722.5000,0.113712
1722.0000,0.0947142
1721.5000,0.113093
1721.0000,0.119824
1720.5000,0.11418
1720.0000,0.104999
1719.5000,0.103062
1719.0000,0.115558
1718.5000,0.116894
1718.0000,0.122947
1717.5000,0.107597
1717.0000,0.0940652
1716.5000,0.102003
1716.0000,0.0994964
1715.5000,0.117605
1715.0000,0.105482
1714.5000,0.114729
1714.0000,0.134279
1713.5000,0.111434
1713.0000,0.143168
1712.5000,0.187955
1712.0000,0.137003
1711.5000,0.109458
1711.0000,0.049413
1710.5000,0.12699
1710.0000,0.160167
1709.5000,0.17388
1709.0000,0.280945
1708.5000,0.152616
1708.0000,0.131328
1707.5000,4.9435
1707.0000,0.0622165
1706.5000,0.411983
1706.0000,2.79905
1705.5000,0.0605793
1705.0000,-0.117386
1704.5000,10
1704.0000,-2.26866
1703.5000,-0.159648
1703.0000,-1.50421
1702.5000,-0.506204
1702.0000,0.156744
1701.5000,5.32252
1701.0000,5.04211
1700.5000,5.0818
1700.0000,10
1699.5000,0.026735
1699.0000,10
1698.5000,4.99902
1698.0000,10
1697.5000,-0.733692
1697.0000,5.2241
1696.5000,-1.31147
1696.0000,0.934329
1695.5000,0.130908
1695.0000,0.163241
1694.5000,5.05631
1694.0000,-0.0205743
1693.5000,5.10341
1693.0000,4.87539
1692.5000,10
1692.0000,0.205642
1691.5000,10
1691.0000,-0.0698547
1690.5000,5.11373
1690.0000,10
1689.5000,0.0453952
1689.0000,4.95198
1688.5000,4.9086
1688.0000,-1.82609
1687.5000,4.61143
1687.0000,5.00545
1686.5000,0.445411
1686.0000,-2.25226
1685.5000,0.441989
1685.0000,4.93049
1684.5000,-0.591615
1684.0000,5.2978
1683.5000,0.0883923
1683.0000,0.0576583
1682.5000,4.97918
1682.0000,0.67689
1681.5000,0.0214526
1681.0000,4.79561
1680.5000,5.17436
1680.0000,4.89031
1679.5000,-0.57641
1679.0000,10
1678.5000,5.08089
1678.0000,10
1677.5000,0.228381
1677.0000,2.83688
1676.5000,4.89569
1676.0000,5.14319
1675.5000,5.07013
1675.0000,0.45656
1674.5000,0.309164
1674.0000,-0.383682
1673.5000,4.75089
1673.0000,5.21986
1672.5000,-4.45458
1672.0000,0.0968603
1671.5000,-0.105961
1671.0000,5.02155
1670.5000,5.45024
1670.0000,5.18454
1669.5000,4.89885
1669.0000,5.27596
1668.5000,0.198443
1668.0000,5.4276
1667.5000,0.0596153
1667.0000,5.04825
1666.5000,-0.0536916
1666.0000,-0.0296485
1665.5000,-0.0834164
1665.0000,0.0815367
1664.5000,0.339799
1664.0000,0.212868
1663.5000,0.260841
1663.0000,0.130315
1662.5000,0.171717
1662.0000,0.167521
1661.5000,0.203705
1661.0000,0.150162
1660.5000,0.176888
1660.0000,0.177435
1659.5000,0.159042
1659.0000,0.177549
1658.5000,0.181981
1658.0000,0.178478
1657.5000,0.162645
1657.0000,0.167898
1656.5000,0.176019
1656.0000,0.178319
1655.5000,0.176066
1655.0000,0.171833
1654.5000,0.169524
1654.0000,0.182504
1653.5000,0.1773
1653.0000,0.178443
1652.5000,0.177299
1652.0000,0.179323
1651.5000,0.184851
1651.0000,0.185282
1650.5000,0.180164
1650.0000,0.184353
1649.5000,0.182767
1649.0000,0.191994
1648.5000,0.183947
1648.0000,0.190012
1647.5000,0.190743
1647.0000,0.185545
1646.5000,0.199979
1646.0000,0.185454
1645.5000,0.186374
1645.0000,0.196935
1644.5000,0.179034
1644.0000,0.179968
1643.5000,0.180373
1643.0000,0.185625
1642.5000,0.192686
1642.0000,0.177438
1641.5000,0.181457
1641.0000,0.183118
1640.5000,0.184588
1640.0000,0.18682
1639.5000,0.19373
1639.0000,0.19657
1638.5000,0.189561
1638.0000,0.190925
1637.5000,0.201838
1637.0000,0.193479
1636.5000,0.191433
1636.0000,0.192766
1635.5000,0.195249
1635.0000,0.192134
1634.5000,0.188144
1634.0000,0.189031
1633.5000,0.18698
1633.0000,0.191626
1632.5000,0.190949
1632.0000,0.192319
1631.5000,0.189395
1631.0000,0.19034
1630.5000,0.190988
1630.0000,0.189892
1629.5000,0.192423
1629.0000,0.194513
1628.5000,0.191616
1628.0000,0.19532
1627.5000,0.192804
1627.0000,0.193771
1626.5000,0.194525
1626.0000,0.193067
1625.5000,0.194182
1625.0000,0.192646
1624.5000,0.195356
1624.0000,0.197014
1623.5000,0.194787
1623.0000,0.196912
1622.5000,0.194273
1622.0000,0.195888
1621.5000,0.19541
1621.0000,0.19552
1620.5000,0.196486
1620.0000,0.198385
1619.5000,0.19708
1619.0000,0.198851
1618.5000,0.196592
1618.0000,0.199547
1617.5000,0.199158
1617.0000,0.200205
1616.5000,0.201381
1616.0000,0.200626
1615.5000,0.201231
1615.0000,0.200342
1614.5000,0.201887
1614.0000,0.20116
1613.5000,0.201407
1613.0000,0.201322
1612.5000,0.202653
1612.0000,0.203414
1611.5000,0.202999
1611.0000,0.203108
1610.5000,0.203608
1610.0000,0.204986
1609.5000,0.204146
1609.0000,0.204311
1608.5000,0.204862
1608.0000,0.205162
1607.5000,0.205019
1607.0000,0.205859
1606.5000,0.206424
1606.0000,0.206019
1605.5000,0.206122
1605.0000,0.208744
1604.5000,0.208713
1604.0000,0.210368
1603.5000,0.210475
1603.0000,0.209807
1602.5000,0.210144
1602.0000,0.210125
1601.5000,0.210675
1601.0000,0.211818
1600.5000,0.211442
1600.0000,0.213528
1599.5000,0.211525
1599.0000,0.213154
1598.5000,0.213031
1598.0000,0.213983
1597.5000,0.21483
1597.0000,0.21542
1596.5000,0.216603
1596.0000,0.215717
1595.5000,0.216475
1595.0000,0.217802
1594.5000,0.218182
1594.0000,0.218681
1593.5000,0.218149
1593.0000,0.220824
1592.5000,0.219462
1592.0000,0.220548
1591.5000,0.220109
1591.0000,0.222321
1590.5000,0.222205
1590.0000,0.223441
1589.5000,0.224488
1589.0000,0.224586
1588.5000,0.22581
1588.0000,0.225749
1587.5000,0.227944
1587.0000,0.228295
1586.5000,0.22797
1586.0000,0.228675
1585.5000,0.228488
1585.0000,0.229793
1584.5000,0.231501
1584.0000,0.232132
1583.5000,0.23262
1583.0000,0.23309
1582.5000,0.234196
1582.0000,0.23363
1581.5000,0.234845
1581.0000,0.236335
1580.5000,0.23698
1580.0000,0.237844
1579.5000,0.237701
1579.0000,0.239504
1578.5000,0.239526
1578.0000,0.240258
1577.5000,0.240536
1577.0000,0.243018
1576.5000,0.242872
1576.0000,0.243257
1575.5000,0.245404
1575.0000,0.246442
1574.5000,0.245993
1574.0000,0.247562
1573.5000,0.247853
1573.0000,0.249121
1572.5000,0.250828
1572.0000,0.250737
1571.5000,0.252525
1571.0000,0.251778
1570.5000,0.254132
1570.0000,0.255432
1569.5000,0.255351
1569.0000,0.255972
1568.5000,0.256024
1568.0000,0.257293
1567.5000,0.257934
1567.0000,0.258867
1566.5000,0.260884
1566.0000,0.262287
1565.5000,0.262956
1565.0000,0.263897
1564.5000,0.265403
1564.0000,0.265103
1563.5000,0.264674
1563.0000,0.266786
1562.5000,0.268039
1562.0000,0.268431
1561.5000,0.270337
1561.0000,0.271328
1560.5000,0.271523
1560.0000,0.272479
1559.5000,0.273509
1559.0000,0.276079
1558.5000,0.276168
1558.0000,0.27621
1557.5000,0.276096
1557.0000,0.277859
1556.5000,0.279173
1556.0000,0.278683
1555.5000,0.280364
1555.0000,0.28138
1554.5000,0.28173
1554.0000,0.28181
1553.5000,0.283183
1553.0000,0.284735
1552.5000,0.285581
1552.0000,0.28516
1551.5000,0.285797
1551.0000,0.28851
1550.5000,0.288419
1550.0000,0.289116
1549.5000,0.290005
1549.0000,0.291552
1548.5000,0.291366
1548.0000,0.291273
1547.5000,0.293032
1547.0000,0.292671
1546.5000,0.294295
1546.0000,0.294458
1545.5000,0.294646
1545.0000,0.29498
1544.5000,0.295803
1544.0000,0.297978
1543.5000,0.297575
1543.0000,0.297916
1542.5000,0.298266
1542.0000,0.29862
1541.5000,0.299928
1541.0000,0.299643
1540.5000,0.301132
1540.0000,0.301691
1539.5000,0.302619
1539.0000,0.301464
1538.5000,0.302182
1538.0000,0.303425
1537.5000,0.302505
1537.0000,0.303403
1536.5000,0.303565
1536.0000,0.30382
1535.5000,0.303592
1535.0000,0.304611
1534.5000,0.304236
1534.0000,0.304411
1533.5000,0.305388
1533.0000,0.307164
1532.5000,0.305603
1532.0000,0.306265
1531.5000,0.307439
1531.0000,0.306043
1530.5000,0.30636
1530.0000,0.306699
1529.5000,0.306769
1529.0000,0.306943
1528.5000,0.306594
1528.0000,0.30592
1527.5000,0.306669
1527.0000,0.305899
1526.5000,0.307204
1526.0000,0.306117
1525.5000,0.30589
1525.0000,0.307067
1524.5000,0.305859
1524.0000,0.307113
1523.5000,0.305696
1523.0000,0.305978
1522.5000,0.305593
1522.0000,0.305575
1521.5000,0.30511
1521.0000,0.305322
1520.5000,0.304215
1520.0000,0.30291
1519.5000,0.302605
1519.0000,0.304068
1518.5000,0.303233
1518.0000,0.301689
1517.5000,0.302446
1517.0000,0.30202
1516.5000,0.30167
1516.0000,0.301981
1515.5000,0.301009
1515.0000,0.300775
1514.5000,0.299977
1514.0000,0.299958
1513.5000,0.298013
1513.0000,0.298765
1512.5000,0.296611
1512.0000,0.29827
1511.5000,0.295964
1511.0000,0.294957
1510.5000,0.295709
1510.0000,0.295585
1509.5000,0.29426
1509.0000,0.293676
1508.5000,0.293729
1508.0000,0.292805
1507.5000,0.291472
1507.0000,0.290049
1506.5000,0.29033
1506.0000,0.289045
1505.5000,0.288916
1505.0000,0.288208
1504.5000,0.286277
1504.0000,0.28608
1503.5000,0.28548
1503.0000,0.283886
1502.5000,0.283054
1502.0000,0.283052
1501.5000,0.281584
1501.0000,0.280506
1500.5000,0.281093
1500.0000,0.278981
1499.5000,0.280302
1499.0000,0.278852
1498.5000,0.27812
1498.0000,0.276081
1497.5000,0.276999
1497.0000,0.274583
1496.5000,0.273278
1496.0000,0.27235
1495.5000,0.271446
1495.0000,0.271775
1494.5000,0.271413
1494.0000,0.26991
1493.5000,0.269259
1493.0000,0.267783
1492.5000,0.268185
1492.0000,0.266477
1491.5000,0.265096
1491.0000,0.265015
1490.5000,0.263182
1490.0000,0.263556
1489.5000,0.261017
1489.0000,0.260921
1488.5000,0.259795
1488.0000,0.259013
1487.5000,0.260116
1487.0000,0.257011
1486.5000,0.256341
1486.0000,0.256925
1485.5000,0.25434
1485.0000,0.254285
1484.5000,0.25305
1484.0000,0.252429
1483.5000,0.251511
1483.0000,0.251453
1482.5000,0.24987
1482.0000,0.247854
1481.5000,0.247117
1481.0000,0.246852
1480.5000,0.244827
1480.0000,0.24569
1479.5000,0.244358
1479.0000,0.2434
1478.5000,0.241218
1478.0000,0.241956
1477.5000,0.240745
1477.0000,0.240403
1476.5000,0.239574
1476.0000,0.238698
1475.5000,0.238337
1475.0000,0.237359
1474.5000,0.236394
1474.0000,0.235561
1473.5000,0.234843
1473.0000,0.233186
1472.5000,0.233864
1472.0000,0.232709
1471.5000,0.23206
1471.0000,0.231137
1470.5000,0.230233
1470.0000,0.229409
1469.5000,0.228023
1469.0000,0.229183
1468.5000,0.227562
1468.0000,0.22842
1467.5000,0.226072
1467.0000,0.226169
1466.5000,0.224645
1466.0000,0.22373
1465.5000,0.223513
1465.0000,0.223767
1464.5000,0.223208
1464.0000,0.22227
1463.5000,0.222087
1463.0000,0.221488
1462.5000,0.219839
1462.0000,0.220921
1461.5000,0.218766
1461.0000,0.218765
1460.5000,0.218398
1460.0000,0.217257
1459.5000,0.217503
1459.0000,0.216553
1458.5000,0.216837
1458.0000,0.214701
1457.5000,0.214859
1457.0000,0.215446
1456.5000,0.21504
1456.0000,0.214841
1455.5000,0.213811
1455.0000,0.213059
1454.5000,0.21248
1454.0000,0.211747
1453.5000,0.211982
1453.0000,0.211166
1452.5000,0.211387
1452.0000,0.209559
1451.5000,0.210867
1451.0000,0.20894
1450.5000,0.208918
1450.0000,0.210076
1449.5000,0.208689
1449.0000,0.208
1448.5000,0.208876
1448.0000,0.208283
1447.5000,0.20687
1447.0000,0.207655
1446.5000,0.206884
1446.0000,0.205872
1445.5000,0.204688
1445.0000,0.206456
1444.5000,0.205474
1444.0000,0.20544
1443.5000,0.205909
1443.0000,0.206779
1442.5000,0.205555
1442.0000,0.205414
1441.5000,0.204395
1441.0000,0.204023
1440.5000,0.203083
1440.0000,0.20279
1439.5000,0.204643
1439.0000,0.203223
1438.5000,0.203456
1438.0000,0.202757
1437.5000,0.203268
1437.0000,0.202662
1436.5000,0.20301
1436.0000,0.201364
1435.5000,0.20241
1435.0000,0.202342
1434.5000,0.201344
1434.0000,0.201258
1433.5000,0.201094
1433.0000,0.202137
1432.5000,0.201703
1432.0000,0.202177
1431.5000,0.20196
1431.0000,0.201504
1430.5000,0.202056
1430.0000,0.202586
1429.5000,0.201369
1429.0000,0.202216
1428.5000,0.200727
1428.0000,0.201186
1427.5000,0.201222
1427.0000,0.201514
1426.5000,0.201711
1426.0000,0.201148
1425.5000,0.201195
1425.0000,0.202611
1424.5000,0.202552
1424.0000,0.201618
1423.5000,0.203056
1423.0000,0.202534
1422.5000,0.203251
1422.0000,0.201764
1421.5000,0.203306
1421.0000,0.203152
1420.5000,0.203091
1420.0000,0.204489
1419.5000,0.202937
1419.0000,0.203991
1418.5000,0.204441
1418.0000,0.204078
1417.5000,0.20414
1417.0000,0.204604
1416.5000,0.205539
1416.0000,0.204589
1415.5000,0.206987
1415.0000,0.204894
1414.5000,0.205846
1414.0000,0.206826
1413.5000,0.206553
1413.0000,0.207969
1412.5000,0.207383
1412.0000,0.206312
1411.5000,0.206925
1411.0000,0.206386
1410.5000,0.206547
1410.0000,0.206774
1409.5000,0.207028
1409.0000,0.207653
1408.5000,0.207897
1408.0000,0.209834
1407.5000,0.208282
1407.0000,0.209213
1406.5000,0.20901
1406.0000,0.210165
1405.5000,0.210319
1405.0000,0.210061
1404.5000,0.211645
1404.0000,0.211966
1403.5000,0.212405
1403.0000,0.212645
1402.5000,0.211617
1402.0000,0.211269
1401.5000,0.214401
1401.0000,0.213079
1400.5000,0.213259
1400.0000,0.214069
1399.5000,0.21298
1399.0000,0.214849
1398.5000,0.214591
1398.0000,0.215197
1397.5000,0.215655
1397.0000,0.217198
1396.5000,0.216777
1396.0000,0.217365
1395.5000,0.218278
1395.0000,0.21871
1394.5000,0.219109
1394.0000,0.220407
1393.5000,0.220267
1393.0000,0.221129
1392.5000,0.220954
1392.0000,0.222068
1391.5000,0.223694
1391.0000,0.222749
1390.5000,0.223376
1390.0000,0.223389
1389.5000,0.223715
1389.0000,0.225126
1388.5000,0.226303
1388.0000,0.227767
1387.5000,0.225626
1387.0000,0.227034
1386.5000,0.228304
1386.0000,0.229632
1385.5000,0.229035
1385.0000,0.231609
1384.5000,0.229551
1384.0000,0.232917
1383.5000,0.232813
1383.0000,0.232427
1382.5000,0.233071
1382.0000,0.234596
1381.5000,0.23435
1381.0000,0.235457
1380.5000,0.232864
1380.0000,0.235287
1379.5000,0.237413
1379.0000,0.236787
1378.5000,0.238024
1378.0000,0.237798
1377.5000,0.23705
1377.0000,0.238787
1376.5000,0.239495
1376.0000,0.240135
1375.5000,0.241229
1375.0000,0.242385
1374.5000,0.244012
1374.0000,0.242907
1373.5000,0.244237
1373.0000,0.244458
1372.5000,0.246543
1372.0000,0.247114
1371.5000,0.247709
1371.0000,0.248503
1370.5000,0.249712
1370.0000,0.24886
1369.5000,0.251146
1369.0000,0.250944
1368.5000,0.250455
1368.0000,0.253233
1367.5000,0.252799
1367.0000,0.254915
1366.5000,0.254645
1366.0000,0.257144
1365.5000,0.256204
1365.0000,0.257513
1364.5000,0.257729
1364.0000,0.258879
1363.5000,0.260602
1363.0000,0.261838
1362.5000,0.259243
1362.0000,0.260769
1361.5000,0.262117
1361.0000,0.263245
1360.5000,0.263469
1360.0000,0.2637
1359.5000,0.264721
1359.0000,0.26607
1358.5000,0.265895
1358.0000,0.267485
1357.5000,0.267986
1357.0000,0.268326
1356.5000,0.269848
1356.0000,0.269114
1355.5000,0.270331
1355.0000,0.270756
1354.5000,0.27219
1354.0000,0.272349
1353.5000,0.273866
1353.0000,0.27337
1352.5000,0.275481
1352.0000,0.275712
1351.5000,0.275803
1351.0000,0.276959
1350.5000,0.277049
1350.0000,0.279419
1349.5000,0.279686
1349.0000,0.279618
1348.5000,0.279536
1348.0000,0.28197
1347.5000,0.28201
1347.0000,0.282247
1346.5000,0.282577
1346.0000,0.283869
1345.5000,0.284567
1345.0000,0.284448
1344.5000,0.285352
1344.0000,0.285581
1343.5000,0.286397
1343.0000,0.286356
1342.5000,0.287392
1342.0000,0.287787
1341.5000,0.288582
1341.0000,0.289282
1340.5000,0.29111
1340.0000,0.290537
1339.5000,0.290128
1339.0000,0.29089
1338.5000,0.29162
1338.0000,0.291864
1337.5000,0.292553
1337.0000,0.294118
1336.5000,0.293168
1336.0000,0.294175
1335.5000,0.293492
1335.0000,0.294787
1334.5000,0.295172
1334.0000,0.295848
1333.5000,0.296329
1333.0000,0.295853
1332.5000,0.297303
1332.0000,0.296899
1331.5000,0.29776
1331.0000,0.29764
1330.5000,0.298594
1330.0000,0.297298
1329.5000,0.297884
1329.0000,0.298999
1328.5000,0.298299
1328.0000,0.299236
1327.5000,0.299902
1327.0000,0.300216
1326.5000,0.300155
1326.0000,0.300718
1325.5000,0.299923
1325.0000,0.300216
1324.5000,0.300203
1324.0000,0.301192
1323.5000,0.301912
1323.0000,0.301512
1322.5000,0.30105
1322.0000,0.301638
1321.5000,0.301101
1321.0000,0.302381
1320.5000,0.301702
1320.0000,0.30182
1319.5000,0.301691
1319.0000,0.301603
1318.5000,0.302108
1318.0000,0.3024
1317.5000,0.300998
1317.0000,0.300993
1316.5000,0.30215
1316.0000,0.30268
1315.5000,0.301546
1315.0000,0.302166
1314.5000,0.301648
1314.0000,0.300873
1313.5000,0.300829
1313.0000,0.301503
1312.5000,0.302022
1312.0000,0.301197
1311.5000,0.301012
1311.0000,0.301114
1310.5000,0.301163
1310.0000,0.299921
1309.5000,0.300371
1309.0000,0.300898
1308.5000,0.299835
1308.0000,0.300165
1307.5000,0.300421
1307.0000,0.300106
1306.5000,0.29879
1306.0000,0.299142
1305.5000,0.299203
1305.0000,0.299469
1304.5000,0.299323
1304.0000,0.298495
1303.5000,0.297934
1303.0000,0.298783
1302.5000,0.297737
1302.0000,0.298151
1301.5000,0.296973
1301.0000,0.297776
1300.5000,0.297082
1300.0000,0.296579
1299.5000,0.296273
1299.0000,0.296125
1298.5000,0.295595
1298.0000,0.294396
1297.5000,0.293539
1297.0000,0.293972
1296.5000,0.293348
1296.0000,0.293293
1295.5000,0.292963
1295.0000,0.29234
1294.5000,0.291798
1294.0000,0.291389
1293.5000,0.290915
1293.0000,0.289903
1292.5000,0.289154
1292.0000,0.289233
1291.5000,0.28706
1291.0000,0.287773
1290.5000,0.287245
1290.0000,0.285945
1289.5000,0.28537
1289.0000,0.285784
1288.5000,0.284569
1288.0000,0.284562
1287.5000,0.282839
1287.0000,0.282972
1286.5000,0.281877
1286.0000,0.282114
1285.5000,0.281573
1285.0000,0.280282
1284.5000,0.280035
1284.0000,0.279699
1283.5000,0.279147
1283.0000,0.278203
1282.5000,0.278391
1282.0000,0.277797
1281.5000,0.276186
1281.0000,0.275904
1280.5000,0.275502
1280.0000,0.275124
1279.5000,0.27464
1279.0000,0.274961
1278.5000,0.274824
1278.0000,0.273508
1277.5000,0.273515
1277.0000,0.272043
1276.5000,0.272283
1276.0000,0.271472
1275.5000,0.270562
1275.0000,0.269772
1274.5000,0.27075
1274.0000,0.269511
1273.5000,0.269917
1273.0000,0.268944
1272.5000,0.268078
1272.0000,0.267786
1271.5000,0.268128
1271.0000,0.267315
1270.5000,0.266569
1270.0000,0.267123
1269.5000,0.265416
1269.0000,0.265011
1268.5000,0.265397
1268.0000,0.265176
1267.5000,0.264399
1267.0000,0.264501
1266.5000,0.264386
1266.0000,0.263974
1265.5000,0.263875
1265.0000,0.263764
1264.5000,0.263033
1264.0000,0.262699
1263.5000,0.263086
1263.0000,0.262845
1262.5000,0.261744
1262.0000,0.262936
1261.5000,0.261952
1261.0000,0.261529
1260.5000,0.261083
1260.0000,0.261469
1259.5000,0.261784
1259.0000,0.261684
1258.5000,0.26183
1258.0000,0.261271
1257.5000,0.261983
1257.0000,0.262329
1256.5000,0.261717
1256.0000,0.262298
1255.5000,0.262082
1255.0000,0.262364
1254.5000,0.262954
1254.0000,0.262833
1253.5000,0.263913
1253.0000,0.263522
1252.5000,0.264022
1252.0000,0.26411
1251.5000,0.263918
1251.0000,0.265521
1250.5000,0.264892
1250.0000,0.265788
1249.5000,0.266461
1249.0000,0.266489
1248.5000,0.267492
1248.0000,0.267855
1247.5000,0.267533
1247.0000,0.26833
1246.5000,0.268545
1246.0000,0.269249
1245.5000,0.269493
1245.0000,0.270687
1244.5000,0.270875
1244.0000,0.271619
1243.5000,0.27228
1243.0000,0.272737
1242.5000,0.273705
1242.0000,0.273865
1241.5000,0.274403
1241.0000,0.275208
1240.5000,0.275645
1240.0000,0.275896
1239.5000,0.276958
1239.0000,0.277515
1238.5000,0.27829
1238.0000,0.279239
1237.5000,0.279692
1237.0000,0.280133
1236.5000,0.280263
1236.0000,0.28157
1235.5000,0.281705
1235.0000,0.282712
1234.5000,0.283214
1234.0000,0.283877
1233.5000,0.28459
1233.0000,0.285344
1232.5000,0.285909
1232.0000,0.286347
1231.5000,0.288525
1231.0000,0.288772
1230.5000,0.289419
1230.0000,0.290734
1229.5000,0.290598
1229.0000,0.291322
1228.5000,0.29255
1228.0000,0.293376
1227.5000,0.293672
1227.0000,0.294523
1226.5000,0.295232
1226.0000,0.296426
1225.5000,0.297529
1225.0000,0.29718
1224.5000,0.299083
1224.0000,0.299387
1223.5000,0.300442
1223.0000,0.301073
1222.5000,0.302087
1222.0000,0.304038
1221.5000,0.303968
1221.0000,0.305019
1220.5000,0.304713
1220.0000,0.306603
1219.5000,0.307884
1219.0000,0.307941
1218.5000,0.309248
1218.0000,0.310432
1217.5000,0.311678
1217.0000,0.311495
1216.5000,0.31203
1216.0000,0.312805
1215.5000,0.3144
1215.0000,0.315724
1214.5000,0.31575
1214.0000,0.317754
1213.5000,0.317888
1213.0000,0.319249
1212.5000,0.319551
1212.0000,0.321426
1211.5000,0.322966
1211.0000,0.322039
1210.5000,0.323868
1210.0000,0.324598
1209.5000,0.325879
1209.0000,0.327298
1208.5000,0.327117
1208.0000,0.328525
1207.5000,0.330495
1207.0000,0.331068
1206.5000,0.331951
1206.0000,0.33121
1205.5000,0.33284
1205.0000,0.333009
1204.5000,0.335938
1204.0000,0.33622
1203.5000,0.337481
1203.0000,0.338993
1202.5000,0.337472
1202.0000,0.341298
1201.5000,0.340778
1201.0000,0.342387
1200.5000,0.343214
1200.0000,0.346173
1199.5000,0.346961
1199.0000,0.348195
1198.5000,0.350321
1198.0000,0.352042
1197.5000,0.352464
1197.0000,0.354658
1196.5000,0.356585
1196.0000,0.356827
1195.5000,0.359742
1195.0000,0.362459
1194.5000,0.363792
1194.0000,0.365055
1193.5000,0.367937
1193.0000,0.370792
1192.5000,0.370755
1192.0000,0.374075
1191.5000,0.37764
1191.0000,0.380205
1190.5000,0.380637
1190.0000,0.385253
1189.5000,0.386444
1189.0000,0.386326
1188.5000,0.38808
1188.0000,0.386678
1187.5000,0.387368
1187.0000,0.388636
1186.5000,0.388174
1186.0000,0.39119
1185.5000,0.391922
1185.0000,0.39436
1184.5000,0.392479
1184.0000,0.3942
1183.5000,0.394248
1183.0000,0.395641
1182.5000,0.395404
1182.0000,0.396999
1181.5000,0.396868
1181.0000,0.396696
1180.5000,0.398102
1180.0000,0.400134
1179.5000,0.400284
1179.0000,0.401886
1178.5000,0.401422
1178.0000,0.402599
1177.5000,0.403026
1177.0000,0.402136
1176.5000,0.405087
1176.0000,0.404156
1175.5000,0.405781
1175.0000,0.407236
1174.5000,0.405029
1174.0000,0.407793
1173.5000,0.408561
1173.0000,0.407781
1172.5000,0.409787
1172.0000,0.41211
1171.5000,0.410304
1171.0000,0.410736
1170.5000,0.413346
1170.0000,0.412633
1169.5000,0.413523
1169.0000,0.414366
1168.5000,0.414123
1168.0000,0.41525
1167.5000,0.415376
1167.0000,0.415589
1166.5000,0.415761
1166.0000,0.416613
1165.5000,0.417705
1165.0000,0.415564
1164.5000,0.41851
1164.0000,0.418647
1163.5000,0.419091
1163.0000,0.419286
1162.5000,0.420983
1162.0000,0.421621
1161.5000,0.423766
1161.0000,0.421602
1160.5000,0.422705
1160.0000,0.423695
1159.5000,0.423364
1159.0000,0.425451
1158.5000,0.425434
1158.0000,0.425792
1157.5000,0.424238
1157.0000,0.428235
1156.5000,0.428596
1156.0000,0.426083
1155.5000,0.42948
1155.0000,0.429836
1154.5000,0.427356
1154.0000,0.42874
1153.5000,0.431894
1153.0000,0.429375
1152.5000,0.429467
1152.0000,0.436754
1151.5000,0.428917
1151.0000,0.434744
1150.5000,0.430606
1150.0000,0.432287
1149.5000,0.432789
1149.0000,0.428059
1148.5000,0.432682
1148.0000,0.431084
1147.5000,0.432763
1147.0000,0.432837
1146.5000,0.435189
1146.0000,0.43122
1145.5000,0.439077
1145.0000,0.434136
1144.5000,0.428149
1144.0000,0.436545
1143.5000,0.430489
1143.0000,0.430093
1142.5000,0.434708
1142.0000,0.431252
1141.5000,0.431462
1141.0000,0.434797
1140.5000,0.431768
1140.0000,0.429333
1139.5000,0.433822
1139.0000,0.436474
1138.5000,0.434618
1138.0000,0.435446
1137.5000,0.432696
1137.0000,0.433706
1136.5000,0.433752
1136.0000,0.435619
1135.5000,0.434498
1135.0000,0.434874
1134.5000,0.436359
1134.0000,0.435852
1133.5000,0.437022
1133.0000,0.435317
1132.5000,0.435999
1132.0000,0.438474
1131.5000,0.437037
1131.0000,0.438568
1130.5000,0.437588
1130.0000,0.438586
1129.5000,0.437902
1129.0000,0.439535
1128.5000,0.439505
1128.0000,0.439217
1127.5000,0.439395
1127.0000,0.437548
1126.5000,0.439889
1126.0000,0.439169
1125.5000,0.441557
1125.0000,0.440348
1124.5000,0.439999
1124.0000,0.440145
1123.5000,0.441514
1123.0000,0.440024
1122.5000,0.440967
1122.0000,0.442962
1121.5000,0.442256
1121.0000,0.441491
1120.5000,0.442774
1120.0000,0.442234
1119.5000,0.443482
1119.0000,0.4435
1118.5000,0.441457
1118.0000,0.442996
1117.5000,0.441582
1117.0000,0.44264
1116.5000,0.443139
1116.0000,0.442862
1115.5000,0.443161
1115.0000,0.444907
1114.5000,0.443649
1114.0000,0.444639
1113.5000,0.443733
1113.0000,0.444018
1112.5000,0.44436
1112.0000,0.443931
1111.5000,0.444468
1111.0000,0.444694
1110.5000,0.445479
1110.0000,0.446183
1109.5000,0.445262
1109.0000,0.443697
1108.5000,0.446887
1108.0000,0.446232
1107.5000,0.445899
1107.0000,0.445374
1106.5000,0.445432
1106.0000,0.446886
1105.5000,0.445231
1105.0000,0.446231
1104.5000,0.447052
1104.0000,0.445317
1103.5000,0.447267
1103.0000,0.44565
1102.5000,0.447454
1102.0000,0.447771
1101.5000,0.447786
1101.0000,0.447395
1100.5000,0.447565
1100.0000,0.448896
1099.5000,0.447107
1099.0000,0.447576
1098.5000,0.447797
1098.0000,0.448962
1097.5000,0.447827
1097.0000,0.449042
1096.5000,0.448401
1096.0000,0.448496
1095.5000,0.448607
1095.0000,0.44928
1094.5000,0.449051
1094.0000,0.448331
1093.5000,0.448763
1093.0000,0.44978
1092.5000,0.450264
1092.0000,0.44866
1091.5000,0.451985
1091.0000,0.452312
1090.5000,0.451268
1090.0000,0.452438
1089.5000,0.452163
1089.0000,0.451689
1088.5000,0.451999
1088.0000,0.451822
1087.5000,0.451967
1087.0000,0.453462
1086.5000,0.45248
1086.0000,0.452309
1085.5000,0.452424
1085.0000,0.453322
1084.5000,0.452208
1084.0000,0.453672
1083.5000,0.453916
1083.0000,0.452439
1082.5000,0.456255
1082.0000,0.455808
1081.5000,0.454968
1081.0000,0.453397
1080.5000,0.454824
1080.0000,0.454415
1079.5000,0.45445
1079.0000,0.455735
1078.5000,0.455763
1078.0000,0.458393
1077.5000,0.455989
1077.0000,0.456365
1076.5000,0.457496
1076.0000,0.458852
1075.5000,0.455978
1075.0000,0.456429
1074.5000,0.458504
1074.0000,0.459658
1073.5000,0.458492
1073.0000,0.458014
1072.5000,0.45856
1072.0000,0.460216
1071.5000,0.458965
1071.0000,0.460421
1070.5000,0.460563
1070.0000,0.459695
1069.5000,0.460508
1069.0000,0.45958
1068.5000,0.461457
1068.0000,0.462491
1067.5000,0.462627
1067.0000,0.461857
1066.5000,0.463682
1066.0000,0.462441
1065.5000,0.462637
1065.0000,0.464283
1064.5000,0.464595
1064.0000,0.462342
1063.5000,0.464401
1063.0000,0.46434
1062.5000,0.465808
1062.0000,0.465021
1061.5000,0.465147
1061.0000,0.466122
1060.5000,0.464964
1060.0000,0.466512
1059.5000,0.466626
1059.0000,0.46667
1058.5000,0.46664
1058.0000,0.467705
1057.5000,0.46678
1057.0000,0.46789
1056.5000,0.469302
1056.0000,0.470253
1055.5000,0.470684
1055.0000,0.469693
1054.5000,0.470125
1054.0000,0.470694
1053.5000,0.47224
1053.0000,0.472081
1052.5000,0.471834
1052.0000,0.472489
1051.5000,0.471525
1051.0000,0.473066
1050.5000,0.47371
1050.0000,0.473746
1049.5000,0.473605
1049.0000,0.47713
1048.5000,0.475844
1048.0000,0.474566
1047.5000,0.476842
1047.0000,0.476517
1046.5000,0.476594
1046.0000,0.475346
1045.5000,0.477042
1045.0000,0.479803
1044.5000,0.477472
1044.0000,0.479168
1043.5000,0.481456
1043.0000,0.479525
1042.5000,0.480305
1042.0000,0.482915
1041.5000,0.480208
1041.0000,0.481665
1040.5000,0.483038
1040.0000,0.482833
1039.5000,0.483089
1039.0000,0.484361
1038.5000,0.485707
1038.0000,0.485888
1037.5000,0.486212
1037.0000,0.485324
1036.5000,0.486754
1036.0000,0.486103
1035.5000,0.489485
1035.0000,0.488851
1034.5000,0.489259
1034.0000,0.489715
1033.5000,0.491318
1033.0000,0.489462
1032.5000,0.492068
1032.0000,0.491302
1031.5000,0.493057
1031.0000,0.493589
1030.5000,0.491515
1030.0000,0.496156
1029.5000,0.495877
1029.0000,0.495187
1028.5000,0.496025
1028.0000,0.496311
1027.5000,0.497094
1027.0000,0.499088
1026.5000,0.498353
1026.0000,0.499039
1025.5000,0.501491
1025.0000,0.500978
1024.5000,0.500837
1024.0000,0.503358
1023.5000,0.503139
1023.0000,0.504784
1022.5000,0.503548
1022.0000,0.504216
1021.5000,0.508073
1021.0000,0.506224
1020.5000,0.506043
1020.0000,0.508435
1019.5000,0.510839
1019.0000,0.510843
1018.5000,0.509235
1018.0000,0.511418
1017.5000,0.510849
1017.0000,0.513334
1016.5000,0.51163
1016.0000,0.513683
1015.5000,0.513318
1015.0000,0.513471
1014.5000,0.517023
1014.0000,0.517631
1013.5000,0.517199
1013.0000,0.518521
1012.5000,0.521039
1012.0000,0.520857
1011.5000,0.522067
1011.0000,0.520409
1010.5000,0.519788
1010.0000,0.523549
1009.5000,0.522912
1009.0000,0.524396
1008.5000,0.527609
1008.0000,0.527496
1007.5000,0.528906
1007.0000,0.528396
1006.5000,0.527943
1006.0000,0.529998
1005.5000,0.529935
1005.0000,0.531753
1004.5000,0.532103
1004.0000,0.534369
1003.5000,0.532982
1003.0000,0.533936
1002.5000,0.536097
1002.0000,0.538345
1001.5000,0.539523
1001.0000,0.539955
1000.5000,0.541187
1000.0000,0.539974
999.5000,0.541539
999.0000,0.541507
998.5000,0.540541
998.0000,0.544845
997.5000,0.543998
997.0000,0.544479
996.5000,0.54743
996.0000,0.547052
995.5000,0.547858
995.0000,0.547022
994.5000,0.54986
994.0000,0.550407
993.5000,0.553169
993.0000,0.551255
992.5000,0.551426
992.0000,0.556489
991.5000,0.553651
991.0000,0.555714
990.5000,0.553916
990.0000,0.559102
989.5000,0.558489
989.0000,0.558703
988.5000,0.560448
988.0000,0.563273
987.5000,0.563229
987.0000,0.565079
986.5000,0.566327
986.0000,0.566114
985.5000,0.56989
985.0000,0.56894
984.5000,0.567558
984.0000,0.56955
983.5000,0.566546
983.0000,0.570523
982.5000,0.571955
982.0000,0.57416
981.5000,0.574108
981.0000,0.575421
980.5000,0.577233
980.0000,0.577311
979.5000,0.576942
979.0000,0.578529
978.5000,0.579489
978.0000,0.579454
977.5000,0.580093
977.0000,0.582828
976.5000,0.581919
976.0000,0.583392
975.5000,0.584364
975.0000,0.589499
974.5000,0.586304
974.0000,0.587117
973.5000,0.590542
973.0000,0.591848
972.5000,0.589247
972.0000,0.590221
971.5000,0.593871
971.0000,0.592522
970.5000,0.591477
970.0000,0.593241
969.5000,0.595567
969.0000,0.594757
968.5000,0.597313
968.0000,0.599405
967.5000,0.599239
967.0000,0.598524
966.5000,0.603269
966.0000,0.605567
965.5000,0.603383
965.0000,0.602579
964.5000,0.605813
964.0000,0.604946
963.5000,0.607859
963.0000,0.608771
962.5000,0.608672
962.0000,0.607963
961.5000,0.611524
961.0000,0.61327
960.5000,0.613051
960.0000,0.612737
959.5000,0.614039
959.0000,0.615051
958.5000,0.615261
958.0000,0.618243
957.5000,0.615871
957.0000,0.617937
956.5000,0.622794
956.0000,0.621368
955.5000,0.622326
955.0000,0.622297
954.5000,0.627495
954.0000,0.62492
953.5000,0.626647
953.0000,0.627008
952.5000,0.631701
952.0000,0.631632
951.5000,0.626511
951.0000,0.627682
950.5000,0.627027
950.0000,0.629599
949.5000,0.636839
949.0000,0.63528
948.5000,0.635974
948.0000,0.638495
947.5000,0.638206
947.0000,0.640781
946.5000,0.637832
946.0000,0.637074
945.5000,0.638133
945.0000,0.647904
944.5000,0.644558
944.0000,0.646284
943.5000,0.646326
943.0000,0.645912
942.5000,0.649955
942.0000,0.652174
941.5000,0.651823
941.0000,0.652243
940.5000,0.655822
940.0000,0.65559
939.5000,0.654464
939.0000,0.655615
938.5000,0.655987
938.0000,0.655924
937.5000,0.660919
937.0000,0.658142
936.5000,0.655366
936.0000,0.668382
935.5000,0.665632
935.0000,0.664864
934.5000,0.658189
934.0000,0.669527
933.5000,0.669673
933.0000,0.668136
932.5000,0.667845
932.0000,0.671487
931.5000,0.666311
931.0000,0.680967
930.5000,0.672227
930.0000,0.675682
929.5000,0.680329
929.0000,0.677401
928.5000,0.681484
928.0000,0.67755
927.5000,0.683586
927.0000,0.680528
926.5000,0.684103
926.0000,0.686378
925.5000,0.685479
925.0000,0.685735
924.5000,0.686329
924.0000,0.684099
923.5000,0.690712
923.0000,0.695333
922.5000,0.68936
922.0000,0.694669
921.5000,0.685279
921.0000,0.704305
920.5000,0.691633
920.0000,0.696803
919.5000,0.696664
919.0000,0.702786
918.5000,0.707346
918.0000,0.705305
917.5000,0.695325
917.0000,0.703713
916.5000,0.707416
916.0000,0.699493
915.5000,0.712143
915.0000,0.707871
914.5000,0.709032
914.0000,0.707166
913.5000,0.712868
913.0000,0.705082
912.5000,0.719148
912.0000,0.713981
911.5000,0.71818
911.0000,0.721211
910.5000,0.722987
910.0000,0.719342
909.5000,0.725031
909.0000,0.715514
908.5000,0.721367
908.0000,0.724363
907.5000,0.737144
907.0000,0.731183
906.5000,0.712256
906.0000,0.734208
905.5000,0.731109
905.0000,0.729279
904.5000,0.733992
904.0000,0.738403
903.5000,0.733635
903.0000,0.740593
902.5000,0.730043
902.0000,0.736971
901.5000,0.738555
901.0000,0.729067
900.5000,0.733407
900.0000,0.730966

##### Extended Information
[Comments]
Sample name,280s - 183nm - n
Comment
User
Division
Company,Uni Bicocca

[Detailed Information]
Creation date,14/11/2024 15:16

Data array type,Linear data array
Horizontal axis,Wavelength [nm]
Vertical axis,Abs
Start,2300 nm
End,900 nm
Data interval,0.5 nm
Data points,2801    

[Measurement Information]
Instrument name,V-770
Model name,V-770
Serial No.,D084061801

Accessory,FLH-740
Accessory S/N,B055061127
  Ref. beam, 

Measurement date,14/11/2024 15:16

Photometric mode,Abs
Measurement range,2300 - 900 nm
Data interval,0.5 nm
UV/Vis bandwidth,0.5 nm
NIR bandwidth,0.8 nm
UV/Vis response,0.24 sec
NIR response,0.24 sec
Scan mode,Continuous
Scan speed,100 nm/min
Change source at,340 nm
Change grating at,850 nm
Light source,D2/WI
Filter exchange,Continuous
Correction,Baseline
No. of accumulations,2

